While testing the Pravega event Auction, Ishan was planning how to break ties between equal bids. The event has multiple rounds of bidding and in each round participants have to quote a certain (integral) amount. At the end of all the rounds, the sum of amounts bid in each round is the total bid of each participant. 
He eventually decided that in case of a tie in the bid, the participant with the highest product of bids in individual rounds would be adjudged the winner. He was, however wondering if the product of the bids could be too large to compute and seeks your help. Given a participant’s total bid for an article, N, determine how large can the product of his individual bids be at most. Do this for T different numbers.

Input:

The first line of the input gives the number of test cases T.
The next T lines contain a single number N, the total bid.

Output:

The output to each test case should be on a new line. On each of the T lines there should be one integer. It is the maximum possible product of individual bids that form a total bid of value N. The answer should be modulo 1000000007.

Input constraints:

0< T <10^4
0< N <10^9

Sample input:

2
2
5

Sample output:

2
6
